Folder: bayes-fire/Example_Cases/TGA/Experimental_Data

Note: README
=========
= ABOUT =
=========

This is a collection of example scripts that makes use of the Python module
PyMC, which is an implementation of Bayesian inference in Python. The scripts
here were adapted from a tutorial given at SciPy 2011 held in Austin, TX, by
Christopher Fonnesbeck (founder of PyMC) and Abie Flaxman. The slides for the
tutorial are located in the Tutorial_Slides folder.

================
= REQUIREMENTS =
================

These scripts require Python and the PyMC module to be installed. For a
convenient installation of Python, you can download the Continuum Anaconda or
Enthought Canopy Express distributions.

After installing Python, you can use "easy_install pip", then use "pip" to
install PyMC with the command "pip install pymc".

You will also need to install the networkx dependency by using the
command "pip install networkx".

=========
= FILES =
=========

./
 ├── CFAST_Model            -  Contains the CFAST model executable and holds
 |                                 the temporary CFAST case files when running
 |                                 the CFAST examples.
 |
 ├──├ Example Cases         -  Examples using PyMC in fire scenarios.
 |  |
 |  ├── */Experimental_Data -  Experimental data to be read in by the scripts.
 |  |
 |  ├── */Figures           -  Output figures and plots will be written to
 |  |                              this folder.
 |  |
 |  ├── */PyMC_Output_Files -  Output from PyMC cases that require longer
 |  |                              runtimes (FDS and CFAST).
 |  |
 |  └── */Scripts           -  Contains the example PyMC scripts.
 |
 ├── FDS_Model              -  Contains the FDS model executable and holds the
 |                                 temporary FDS case files when running the
 |                                 FDS examples.
 |
 ├── Scripts_Other          -  Contains Python scripts that demonstrate
 |                                 additional functionality.
 |
 └── Tutorial_Slides        -  Slides from the SciPy 2011 tutorial.

=========
= USAGE =
=========

Run the Run_Case.py Python files in the Scripts directory for each example
case, and check the output in the Figures directory.

The scripts data_*.py, graphics.py, and models.py are called by the example
scripts.

Happy Bayesianing!

File: gypsum_5Kmin.csv
"T, K","w"
361.38,0.997653
366.03,0.997317
370.68,0.996647
375.31,0.995808
379.89,0.994299
384.41,0.991616
388.83,0.987425
393.12,0.981221
397.24,0.971831
401.19,0.958585
404.89,0.940476
408.57,0.917002
413.06,0.892857
418.55,0.87391
424.72,0.863514
430.42,0.855969
435.42,0.846579
440.19,0.835681
445.14,0.824447
451.04,0.818913
456.9,0.817572
462.3,0.816734
467.48,0.816231
472.58,0.815895
477.62,0.8157277
482.63,0.81556
487.64,0.815392
492.63,0.815225
497.64,0.815057